Freq	Power
[Hz]	[dB]
0.000	1.613
2.441	-1.397
4.883	-109.346
7.324	-115.130
9.766	-110.953
12.207	-112.305
14.648	-104.324
17.090	-108.158
19.531	-98.849
21.973	-92.722
24.414	-96.390
26.855	-120.644
29.297	-113.922
31.738	-110.801
34.180	-102.528
36.621	-101.422
39.062	-99.002
41.504	-104.041
43.945	-120.853
46.387	-102.006
48.828	-110.575
51.270	-109.975
53.711	-103.122
56.152	-101.546
58.594	-100.757
61.035	-98.452
63.477	-105.523
65.918	-105.078
68.359	-109.077
70.801	-112.333
73.242	-102.547
75.684	-109.850
78.125	-101.303
80.566	-96.505
83.008	-102.948
85.449	-114.245
87.891	-99.686
90.332	-101.039
92.773	-101.442
95.215	-95.591
97.656	-94.751
100.098	-96.539
102.539	-95.549
104.980	-106.910
107.422	-113.267
109.863	-101.644
112.305	-94.358
114.746	-108.136
117.187	-108.778
119.629	-103.631
122.070	-105.940
124.512	-111.983
126.953	-97.819
129.395	-108.338
131.836	-104.635
134.277	-102.565
136.719	-99.859
139.160	-92.425
141.602	-91.319
144.043	-113.621
146.484	-107.566
148.926	-92.918
151.367	-98.595
153.809	-90.180
156.250	-102.854
158.691	-93.126
161.133	-96.117
163.574	-89.618
166.016	-89.396
168.457	-89.571
170.898	-85.196
173.340	-84.034
175.781	-81.240
178.223	-77.814
180.664	-75.824
183.105	-71.937
185.547	-67.490
187.988	-62.605
190.430	-56.607
192.871	-48.376
195.312	-35.790
197.754	-4.545
200.195	0.453
202.637	-6.632
205.078	-38.347
207.520	-49.890
209.961	-57.618
212.402	-63.624
214.844	-68.240
217.285	-72.670
219.727	-75.345
222.168	-79.019
224.609	-81.614
227.051	-85.387
229.492	-84.483
231.934	-90.054
234.375	-89.749
236.816	-92.015
239.258	-95.941
241.699	-91.973
244.141	-96.151
246.582	-99.692
249.023	-96.145
251.465	-107.463
253.906	-98.641
256.348	-99.165
258.789	-106.979
261.230	-101.147
263.672	-101.949
266.113	-106.095
268.555	-97.907
270.996	-105.256
273.437	-105.832
275.879	-98.803
278.320	-105.557
280.762	-98.312
283.203	-96.316
285.645	-100.606
288.086	-99.320
290.527	-100.998
292.969	-123.291
295.410	-103.945
297.852	-98.146
300.293	-100.227
302.734	-100.971
305.176	-123.112
307.617	-105.698
310.059	-105.207
312.500	-114.778
314.941	-106.766
317.383	-100.175
319.824	-102.346
322.266	-97.424
324.707	-100.199
327.148	-92.796
329.590	-97.752
332.031	-94.916
334.473	-104.791
336.914	-95.751
339.355	-98.125
341.797	-100.443
344.238	-96.717
346.680	-109.875
349.121	-93.323
351.562	-99.570
354.004	-91.594
356.445	-91.292
358.887	-94.477
361.328	-89.016
363.770	-87.251
366.211	-86.150
368.652	-83.922
371.094	-82.099
373.535	-80.052
375.977	-76.576
378.418	-74.471
380.859	-71.072
383.301	-67.699
385.742	-63.255
388.184	-58.371
390.625	-52.050
393.066	-43.678
395.508	-30.468
397.949	-5.486
400.391	-1.478
402.832	-9.682
405.273	-35.598
407.715	-46.671
410.156	-54.265
412.598	-60.075
415.039	-64.718
417.480	-68.739
419.922	-72.144
422.363	-75.273
424.805	-78.410
427.246	-78.878
429.687	-85.681
432.129	-83.279
434.570	-85.919
437.012	-90.550
439.453	-88.110
441.895	-94.171
444.336	-92.999
446.777	-93.721
449.219	-95.756
451.660	-95.748
454.102	-97.385
456.543	-97.179
458.984	-99.197
461.426	-116.085
463.867	-95.642
466.309	-99.789
468.750	-100.843
471.191	-96.568
473.633	-104.799
476.074	-98.256
478.516	-101.478
480.957	-104.002
483.398	-118.268
485.840	-104.820
488.281	-106.669
490.723	-115.312
493.164	-101.638
495.605	-98.220
498.047	-96.183
500.488	-100.341
502.930	-97.560
505.371	-104.090
507.812	-105.690
510.254	-109.332
512.695	-98.491
515.137	-99.229
517.578	-101.414
520.020	-102.716
522.461	-96.504
524.902	-102.162
527.344	-97.421
529.785	-115.421
532.227	-99.159
534.668	-103.370
537.109	-95.933
539.551	-109.919
541.992	-93.924
544.434	-104.644
546.875	-93.325
549.316	-98.574
551.758	-93.860
554.199	-98.020
556.641	-92.786
559.082	-90.522
561.523	-91.688
563.965	-87.463
566.406	-85.425
568.848	-85.561
571.289	-81.917
573.730	-79.579
576.172	-77.650
578.613	-74.479
581.055	-71.219
583.496	-67.725
585.937	-63.412
588.379	-58.326
590.820	-51.942
593.262	-43.296
595.703	-29.407
598.145	-8.194
600.586	-5.152
603.027	-14.541
605.469	-37.149
607.910	-47.811
610.352	-55.223
612.793	-60.917
615.234	-65.555
617.676	-69.332
620.117	-72.932
622.559	-76.238
625.000	-78.116
627.441	-81.419
629.883	-83.078
632.324	-85.153
634.766	-87.955
637.207	-88.215
639.648	-91.505
642.090	-92.370
644.531	-90.695
646.973	-100.911
649.414	-93.130
651.855	-104.219
654.297	-95.103
656.738	-99.990
659.180	-102.609
661.621	-96.184
664.062	-114.178
666.504	-100.319
668.945	-102.622
671.387	-108.665
673.828	-100.288
676.270	-122.385
678.711	-101.487
681.152	-105.783
683.594	-99.451
686.035	-110.307
688.477	-111.507
690.918	-102.884
693.359	-106.482
695.801	-109.355
698.242	-97.322
700.684	-95.079
703.125	-105.440
705.566	-104.980
708.008	-103.253
710.449	-101.850
712.891	-101.691
715.332	-98.915
717.773	-98.841
720.215	-114.027
722.656	-114.118
725.098	-104.190
727.539	-102.130
729.980	-107.874
732.422	-106.637
734.863	-107.171
737.305	-103.557
739.746	-104.067
742.187	-100.810
744.629	-99.614
747.070	-113.274
749.512	-100.431
751.953	-101.873
754.395	-97.235
756.836	-95.402
759.277	-95.611
761.719	-96.248
764.160	-91.146
766.602	-92.040
769.043	-88.109
771.484	-87.744
773.926	-83.510
776.367	-82.534
778.809	-78.286
781.250	-76.979
783.691	-71.722
786.133	-67.844
788.574	-62.776
791.016	-56.139
793.457	-47.257
795.898	-32.601
798.340	-14.138
800.781	-12.043
803.223	-22.701
805.664	-43.043
808.105	-53.287
810.547	-60.498
812.988	-66.280
815.430	-70.555
817.871	-74.610
820.312	-77.632
822.754	-81.544
825.195	-83.238
827.637	-86.363
830.078	-88.214
832.520	-88.794
834.961	-92.843
837.402	-97.124
839.844	-90.238
842.285	-100.627
844.727	-97.233
847.168	-108.591
849.609	-95.743
852.051	-96.364
854.492	-100.003
856.934	-97.826
859.375	-127.177
861.816	-99.992
864.258	-108.229
866.699	-111.925
869.141	-108.219
871.582	-110.093
874.023	-98.527
876.465	-105.487
878.906	-101.116
881.348	-104.537
883.789	-119.324
886.230	-96.856
888.672	-99.178
891.113	-102.736
893.555	-102.175
895.996	-100.353
898.437	-98.284
900.879	-112.525
903.320	-101.549
905.762	-100.792
908.203	-102.674
910.645	-119.004
913.086	-102.186
915.527	-98.150
917.969	-97.793
920.410	-101.541
922.852	-105.173
925.293	-110.163
927.734	-104.453
930.176	-107.062
932.617	-106.152
935.059	-108.746
937.500	-102.236
939.941	-99.855
942.383	-105.156
944.824	-95.741
947.266	-95.798
949.707	-101.456
952.148	-98.762
954.590	-99.601
957.031	-103.435
959.473	-111.346
961.914	-101.970
964.355	-105.475
966.797	-103.670
969.238	-99.453
971.680	-102.984
974.121	-106.708
976.562	-108.139
979.004	-111.351
981.445	-112.378
983.887	-121.785
986.328	-114.792
988.770	-107.011
991.211	-108.058
993.652	-97.863
996.094	-96.539
998.535	-89.358
1000.977	-87.877
1003.418	-95.803
1005.859	-105.125
1008.301	-103.817
1010.742	-96.143
1013.184	-99.189
1015.625	-107.202
1018.066	-103.231
1020.508	-100.801
1022.949	-101.913
1025.391	-108.207
1027.832	-103.110
1030.273	-112.170
1032.715	-102.150
1035.156	-98.607
1037.598	-96.954
1040.039	-101.664
1042.480	-100.674
1044.922	-106.759
1047.363	-99.170
1049.805	-103.043
1052.246	-102.506
1054.687	-105.476
1057.129	-105.913
1059.570	-103.897
1062.012	-113.563
1064.453	-108.951
1066.895	-106.670
1069.336	-106.500
1071.777	-110.596
1074.219	-108.861
1076.660	-110.011
1079.102	-108.826
1081.543	-97.196
1083.984	-102.667
1086.426	-112.773
1088.867	-100.882
1091.309	-105.767
1093.750	-93.277
1096.191	-99.049
1098.633	-95.555
1101.074	-98.366
1103.516	-102.746
1105.957	-100.177
1108.398	-101.946
1110.840	-121.964
1113.281	-103.339
1115.723	-101.847
1118.164	-104.500
1120.605	-104.410
1123.047	-102.925
1125.488	-109.798
1127.930	-101.690
1130.371	-104.845
1132.812	-101.048
1135.254	-103.383
1137.695	-111.669
1140.137	-98.132
1142.578	-98.945
1145.020	-120.891
1147.461	-102.819
1149.902	-99.466
1152.344	-100.369
1154.785	-98.269
1157.227	-94.804
1159.668	-98.275
1162.109	-106.792
1164.551	-90.626
1166.992	-96.457
1169.434	-88.959
1171.875	-87.998
1174.316	-86.847
1176.758	-82.972
1179.199	-81.275
1181.641	-76.762
1184.082	-73.508
1186.523	-69.108
1188.965	-63.701
1191.406	-56.856
1193.848	-47.446
1196.289	-30.815
1198.730	-16.413
1201.172	-16.182
1203.613	-29.752
1206.055	-46.950
1208.496	-56.596
1210.937	-63.418
1213.379	-68.917
1215.820	-73.399
1218.262	-76.778
1220.703	-80.921
1223.145	-83.209
1225.586	-85.735
1228.027	-88.304
1230.469	-90.766
1232.910	-91.139
1235.352	-96.505
1237.793	-94.945
1240.234	-95.233
1242.676	-101.557
1245.117	-95.823
1247.559	-102.908
1250.000	-107.921
1252.441	-99.708
1254.883	-100.350
1257.324	-102.646
1259.766	-109.564
1262.207	-99.333
1264.648	-105.113
1267.090	-97.936
1269.531	-99.757
1271.973	-103.031
1274.414	-104.501
1276.855	-97.795
1279.297	-97.932
1281.738	-99.707
1284.180	-105.057
1286.621	-111.111
1289.062	-101.194
1291.504	-105.528
1293.945	-99.589
1296.387	-97.558
1298.828	-94.887
1301.270	-102.276
1303.711	-111.407
1306.152	-108.629
1308.594	-103.645
1311.035	-115.546
1313.477	-104.518
1315.918	-105.797
1318.359	-119.393
1320.801	-106.211
1323.242	-109.013
1325.684	-104.073
1328.125	-103.266
1330.566	-135.891
1333.008	-100.207
1335.449	-101.887
1337.891	-101.781
1340.332	-100.103
1342.773	-101.437
1345.215	-111.645
1347.656	-98.166
1350.098	-98.617
1352.539	-102.459
1354.980	-94.148
1357.422	-98.414
1359.863	-91.969
1362.305	-96.704
1364.746	-92.180
1367.187	-88.272
1369.629	-87.783
1372.070	-86.007
1374.512	-82.680
1376.953	-80.694
1379.395	-77.342
1381.836	-74.172
1384.277	-70.398
1386.719	-65.972
1389.160	-60.387
1391.602	-53.501
1394.043	-43.694
1396.484	-25.838
1398.926	-13.054
1401.367	-13.749
1403.809	-29.044
1406.250	-45.108
1408.691	-54.438
1411.133	-61.107
1413.574	-66.610
1416.016	-70.907
1418.457	-73.978
1420.898	-79.625
1423.340	-79.099
1425.781	-84.308
1428.223	-86.460
1430.664	-86.079
1433.105	-92.834
1435.547	-89.671
1437.988	-92.378
1440.430	-97.208
1442.871	-98.919
1445.312	-94.351
1447.754	-103.869
1450.195	-96.165
1452.637	-109.205
1455.078	-97.388
1457.520	-109.807
1459.961	-97.803
1462.402	-103.528
1464.844	-108.287
1467.285	-115.688
1469.727	-101.287
1472.168	-103.420
1474.609	-100.308
1477.051	-101.630
1479.492	-105.343
1481.934	-103.964
1484.375	-110.717
1486.816	-107.733
1489.258	-106.017
1491.699	-110.928
1494.141	-107.873
1496.582	-104.993
1499.023	-98.740
1501.465	-101.130
1503.906	-112.694
1506.348	-102.901
1508.789	-101.529
1511.230	-111.442
1513.672	-104.598
1516.113	-102.277
1518.555	-100.542
1520.996	-112.262
1523.437	-103.216
1525.879	-109.717
1528.320	-103.980
1530.762	-101.404
1533.203	-99.484
1535.645	-102.259
1538.086	-99.788
1540.527	-105.207
1542.969	-100.858
1545.410	-102.087
1547.852	-95.315
1550.293	-110.615
1552.734	-94.530
1555.176	-99.939
1557.617	-104.666
1560.059	-94.421
1562.500	-93.962
1564.941	-91.565
1567.383	-90.229
1569.824	-91.728
1572.266	-85.666
1574.707	-85.162
1577.148	-82.148
1579.590	-78.765
1582.031	-75.784
1584.473	-71.896
1586.914	-67.330
1589.355	-61.670
1591.797	-54.628
1594.238	-44.496
1596.680	-25.093
1599.121	-13.759
1601.562	-15.385
1604.004	-32.692
1606.445	-47.789
1608.887	-56.810
1611.328	-63.433
1613.770	-68.596
1616.211	-73.117
1618.652	-76.328
1621.094	-80.570
1623.535	-82.157
1625.977	-85.939
1628.418	-88.123
1630.859	-87.363
1633.301	-96.920
1635.742	-89.842
1638.184	-108.327
1640.625	-92.407
1643.066	-98.220
1645.508	-97.538
1647.949	-114.182
1650.391	-99.116
1652.832	-103.128
1655.273	-103.059
1657.715	-108.450
1660.156	-106.049
1662.598	-103.825
1665.039	-101.668
1667.480	-99.029
1669.922	-110.074
1672.363	-103.825
1674.805	-99.317
1677.246	-100.313
1679.687	-101.738
1682.129	-100.099
1684.570	-101.522
1687.012	-104.849
1689.453	-105.856
1691.895	-106.517
1694.336	-103.154
1696.777	-104.886
1699.219	-102.912
1701.660	-103.295
1704.102	-109.822
1706.543	-107.238
1708.984	-111.357
1711.426	-103.608
1713.867	-99.087
1716.309	-103.988
1718.750	-108.331
1721.191	-106.043
1723.633	-108.638
1726.074	-120.129
1728.516	-109.626
1730.957	-102.710
1733.398	-119.105
1735.840	-103.849
1738.281	-102.266
1740.723	-102.633
1743.164	-96.219
1745.605	-103.020
1748.047	-106.890
1750.488	-105.162
1752.930	-109.522
1755.371	-102.246
1757.812	-106.269
1760.254	-103.141
1762.695	-101.697
1765.137	-106.517
1767.578	-94.012
1770.020	-95.754
1772.461	-94.306
1774.902	-89.970
1777.344	-89.445
1779.785	-84.779
1782.227	-81.981
1784.668	-78.160
1787.109	-73.121
1789.551	-67.883
1791.992	-60.403
1794.434	-49.975
1796.875	-28.581
1799.316	-18.571
1801.758	-21.138
1804.199	-40.882
1806.641	-55.137
1809.082	-64.020
1811.523	-70.166
1813.965	-75.621
1816.406	-80.144
1818.848	-82.780
1821.289	-86.899
1823.730	-90.302
1826.172	-90.377
1828.613	-94.026
1831.055	-103.461
1833.496	-92.439
1835.937	-104.859
1838.379	-97.797
1840.820	-94.942
1843.262	-101.430
1845.703	-97.258
1848.145	-111.523
1850.586	-104.042
1853.027	-94.821
1855.469	-96.506
1857.910	-97.555
1860.352	-103.844
1862.793	-105.630
1865.234	-100.008
1867.676	-102.745
1870.117	-109.370
1872.559	-102.338
1875.000	-103.389
1877.441	-114.769
1879.883	-105.876
1882.324	-102.284
1884.766	-103.577
1887.207	-114.319
1889.648	-112.725
1892.090	-101.314
1894.531	-96.928
1896.973	-107.379
1899.414	-104.848
1901.855	-105.351
1904.297	-100.112
1906.738	-103.670
1909.180	-102.798
1911.621	-102.856
1914.062	-104.566
1916.504	-106.498
1918.945	-107.435
1921.387	-109.972
1923.828	-113.780
1926.270	-110.648
1928.711	-109.498
1931.152	-100.344
1933.594	-103.293
1936.035	-106.622
1938.477	-103.518
1940.918	-112.580
1943.359	-115.337
1945.801	-100.336
1948.242	-100.748
1950.684	-112.054
1953.125	-115.328
1955.566	-102.761
1958.008	-104.216
1960.449	-100.557
1962.891	-104.560
1965.332	-111.665
1967.773	-99.294
1970.215	-97.608
1972.656	-101.137
1975.098	-102.544
1977.539	-105.118
1979.980	-101.731
1982.422	-103.034
1984.863	-108.698
1987.305	-108.447
1989.746	-118.237
1992.187	-104.507
1994.629	-109.276
1997.070	-100.936
1999.512	-92.913
2001.953	-95.566
2004.395	-101.047
2006.836	-102.531
2009.277	-110.655
2011.719	-111.030
2014.160	-103.019
2016.602	-105.498
2019.043	-108.810
2021.484	-108.305
2023.926	-98.255
2026.367	-97.809
2028.809	-99.956
2031.250	-100.113
2033.691	-108.366
2036.133	-96.005
2038.574	-93.949
2041.016	-102.452
2043.457	-101.929
2045.898	-101.353
2048.340	-101.386
2050.781	-96.502
2053.223	-92.641
2055.664	-95.430
2058.105	-107.246
2060.547	-102.191
2062.988	-105.983
2065.430	-105.503
2067.871	-100.703
2070.312	-105.810
2072.754	-106.747
2075.195	-102.355
2077.637	-108.614
2080.078	-104.934
2082.520	-100.370
2084.961	-101.637
2087.402	-106.340
2089.844	-114.058
2092.285	-115.719
2094.727	-110.378
2097.168	-108.625
2099.609	-106.405
2102.051	-105.930
2104.492	-102.704
2106.934	-99.985
2109.375	-103.501
2111.816	-117.922
2114.258	-129.225
2116.699	-103.688
2119.141	-98.557
2121.582	-99.944
2124.023	-106.286
2126.465	-110.615
2128.906	-102.583
2131.348	-118.838
2133.789	-103.568
2136.230	-103.115
2138.672	-108.693
2141.113	-100.408
2143.555	-102.238
2145.996	-103.103
2148.437	-100.574
2150.879	-99.841
2153.320	-100.441
2155.762	-103.056
2158.203	-111.896
2160.645	-109.375
2163.086	-98.164
2165.527	-113.989
2167.969	-111.494
2170.410	-104.432
2172.852	-99.892
2175.293	-96.279
2177.734	-97.497
2180.176	-91.930
2182.617	-87.474
2185.059	-86.453
2187.500	-80.855
2189.941	-74.127
2192.383	-67.175
2194.824	-55.653
2197.266	-27.352
2199.707	-19.717
2202.148	-24.217
2204.590	-51.805
2207.031	-64.856
2209.473	-72.741
2211.914	-79.179
2214.355	-84.504
2216.797	-88.093
2219.238	-93.065
2221.680	-92.442
2224.121	-101.006
2226.562	-96.113
2229.004	-99.772
2231.445	-109.325
2233.887	-104.027
2236.328	-96.090
2238.770	-94.443
2241.211	-99.837
2243.652	-104.048
2246.094	-105.061
2248.535	-103.039
2250.977	-95.396
2253.418	-86.885
2255.859	-90.440
2258.301	-109.124
2260.742	-109.995
2263.184	-103.573
2265.625	-103.743
2268.066	-113.188
2270.508	-120.052
2272.949	-118.869
2275.391	-107.628
2277.832	-108.347
2280.273	-114.419
2282.715	-107.024
2285.156	-100.998
2287.598	-99.145
2290.039	-100.810
2292.480	-101.509
2294.922	-104.236
2297.363	-103.313
2299.805	-103.976
2302.246	-117.470
2304.687	-102.263
2307.129	-97.856
2309.570	-101.575
2312.012	-110.862
2314.453	-115.400
2316.895	-105.579
2319.336	-101.558
2321.777	-109.971
2324.219	-115.763
2326.660	-100.717
2329.102	-108.026
2331.543	-103.787
2333.984	-111.841
2336.426	-117.093
2338.867	-106.896
2341.309	-96.315
2343.750	-94.746
2346.191	-107.335
2348.633	-98.809
2351.074	-111.274
2353.516	-102.614
2355.957	-109.957
2358.398	-102.772
2360.840	-96.708
2363.281	-110.856
2365.723	-106.630
2368.164	-103.233
2370.605	-101.275
2373.047	-110.034
2375.488	-101.625
2377.930	-99.135
2380.371	-96.282
2382.812	-94.927
2385.254	-92.643
2387.695	-84.667
2390.137	-79.896
2392.578	-72.236
2395.020	-60.180
2397.461	-22.633
2399.902	-16.085
2402.344	-21.589
2404.785	-58.985
2407.227	-71.305
2409.668	-79.231
2412.109	-85.458
2414.551	-90.240
2416.992	-94.367
2419.434	-97.384
2421.875	-100.292
2424.316	-103.020
2426.758	-96.691
2429.199	-102.600
2431.641	-104.004
2434.082	-106.349
2436.523	-101.808
2438.965	-104.981
2441.406	-115.639
2443.848	-108.301
2446.289	-121.130
2448.730	-107.516
2451.172	-95.329
2453.613	-85.826
2456.055	-88.410
2458.496	-100.733
2460.937	-99.793
2463.379	-101.438
2465.820	-106.072
2468.262	-96.745
2470.703	-97.506
2473.145	-103.185
2475.586	-109.920
2478.027	-100.430
2480.469	-98.260
2482.910	-101.262
2485.352	-111.268
2487.793	-118.992
2490.234	-102.769
2492.676	-101.682
2495.117	-115.613
2497.559	-106.922
2500.000	-100.278
2502.441	-104.582
2504.883	-107.036
2507.324	-107.899
2509.766	-100.973
2512.207	-108.575
2514.648	-101.678
2517.090	-106.792
2519.531	-103.862
2521.973	-108.631
2524.414	-106.891
2526.855	-108.965
2529.297	-102.340
2531.738	-108.953
2534.180	-110.329
2536.621	-107.982
2539.062	-103.963
2541.504	-103.611
2543.945	-115.190
2546.387	-106.968
2548.828	-104.925
2551.270	-103.792
2553.711	-108.639
2556.152	-98.332
2558.594	-98.593
2561.035	-110.868
2563.477	-104.520
2565.918	-98.512
2568.359	-95.740
2570.801	-102.746
2573.242	-100.985
2575.684	-102.401
2578.125	-102.059
2580.566	-100.600
2583.008	-91.231
2585.449	-92.106
2587.891	-86.565
2590.332	-79.828
2592.773	-71.688
2595.215	-59.558
2597.656	-22.136
2600.098	-16.631
2602.539	-23.179
2604.980	-60.784
2607.422	-72.565
2609.863	-79.982
2612.305	-88.756
2614.746	-88.838
2617.187	-93.209
2619.629	-106.756
2622.070	-97.257
2624.512	-98.010
2626.953	-101.496
2629.395	-114.411
2631.836	-106.447
2634.277	-95.650
2636.719	-99.022
2639.160	-103.332
2641.602	-101.761
2644.043	-98.519
2646.484	-103.581
2648.926	-109.419
2651.367	-90.457
2653.809	-81.970
2656.250	-84.976
2658.691	-100.183
2661.133	-100.676
2663.574	-107.632
2666.016	-109.931
2668.457	-100.925
2670.898	-103.394
2673.340	-111.396
2675.781	-105.880
2678.223	-105.034
2680.664	-97.179
2683.105	-101.938
2685.547	-102.013
2687.988	-102.053
2690.430	-99.652
2692.871	-104.674
2695.312	-101.272
2697.754	-103.632
2700.195	-119.887
2702.637	-115.826
2705.078	-105.888
2707.520	-99.756
2709.961	-100.613
2712.402	-114.879
2714.844	-105.701
2717.285	-110.890
2719.727	-110.053
2722.168	-102.240
2724.609	-99.964
2727.051	-98.832
2729.492	-97.358
2731.934	-102.268
2734.375	-111.837
2736.816	-107.612
2739.258	-106.533
2741.699	-105.235
2744.141	-115.991
2746.582	-104.783
2749.023	-105.453
2751.465	-102.036
2753.906	-102.856
2756.348	-104.433
2758.789	-107.173
2761.230	-99.953
2763.672	-100.381
2766.113	-104.478
2768.555	-103.820
2770.996	-100.702
2773.437	-102.744
2775.879	-97.971
2778.320	-98.734
2780.762	-90.445
2783.203	-91.045
2785.645	-86.064
2788.086	-80.570
2790.527	-74.475
2792.969	-66.510
2795.410	-53.438
2797.852	-25.861
2800.293	-21.363
2802.734	-29.001
2805.176	-57.286
2807.617	-68.678
2810.059	-76.052
2812.500	-82.034
2814.941	-87.337
2817.383	-89.367
2819.824	-99.464
2822.266	-91.739
2824.707	-111.353
2827.148	-98.707
2829.590	-110.090
2832.031	-98.741
2834.473	-106.200
2836.914	-99.603
2839.355	-94.366
2841.797	-95.273
2844.238	-108.239
2846.680	-99.921
2849.121	-100.176
2851.562	-89.916
2854.004	-84.711
2856.445	-90.147
2858.887	-99.414
2861.328	-103.863
2863.770	-95.954
2866.211	-101.115
2868.652	-103.553
2871.094	-101.642
2873.535	-104.190
2875.977	-111.276
2878.418	-103.917
2880.859	-104.085
2883.301	-101.397
2885.742	-103.911
2888.184	-107.517
2890.625	-119.352
2893.066	-100.350
2895.508	-99.022
2897.949	-106.092
2900.391	-102.426
2902.832	-107.314
2905.273	-111.022
2907.715	-111.037
2910.156	-101.691
2912.598	-100.319
2915.039	-98.445
2917.480	-109.277
2919.922	-99.796
2922.363	-101.256
2924.805	-103.248
2927.246	-105.080
2929.687	-117.388
2932.129	-104.812
2934.570	-101.943
2937.012	-103.343
2939.453	-106.099
2941.895	-104.028
2944.336	-102.033
2946.777	-98.205
2949.219	-108.036
2951.660	-106.936
2954.102	-108.226
2956.543	-106.322
2958.984	-102.701
2961.426	-101.660
2963.867	-97.666
2966.309	-100.268
2968.750	-102.715
2971.191	-109.199
2973.633	-102.888
2976.074	-106.253
2978.516	-113.451
2980.957	-106.526
2983.398	-107.223
2985.840	-110.525
2988.281	-106.760
2990.723	-106.201
2993.164	-106.841
2995.605	-104.448
2998.047	-100.172
3000.488	-94.558
3002.930	-101.114
3005.371	-103.243
3007.812	-96.432
3010.254	-99.675
3012.695	-107.949
3015.137	-103.027
3017.578	-106.479
3020.020	-103.855
3022.461	-100.070
3024.902	-100.579
3027.344	-104.545
3029.785	-109.952
3032.227	-114.933
3034.668	-104.112
3037.109	-99.874
3039.551	-101.176
3041.992	-104.174
3044.434	-108.875
3046.875	-110.762
3049.316	-121.939
3051.758	-92.239
3054.199	-87.480
3056.641	-94.428
3059.082	-109.166
3061.523	-100.276
3063.965	-102.701
3066.406	-103.119
3068.848	-106.627
3071.289	-103.252
3073.730	-125.619
3076.172	-105.517
3078.613	-104.722
3081.055	-100.933
3083.496	-106.442
3085.937	-107.413
3088.379	-100.781
3090.820	-104.645
3093.262	-109.912
3095.703	-101.577
3098.145	-98.719
3100.586	-101.465
3103.027	-105.124
3105.469	-101.353
3107.910	-98.659
3110.352	-101.460
3112.793	-118.328
3115.234	-100.171
3117.676	-103.433
3120.117	-116.161
3122.559	-101.926
3125.000	-98.934
3127.441	-103.574
3129.883	-103.988
3132.324	-113.125
3134.766	-105.314
3137.207	-104.310
3139.648	-100.100
3142.090	-111.328
3144.531	-105.014
3146.973	-103.860
3149.414	-103.453
3151.855	-102.358
3154.297	-98.224
3156.738	-101.087
3159.180	-102.202
3161.621	-95.642
3164.062	-96.873
3166.504	-92.104
3168.945	-105.856
3171.387	-99.366
3173.828	-95.025
3176.270	-91.524
3178.711	-93.388
3181.152	-86.756
3183.594	-83.413
3186.035	-79.443
3188.477	-74.289
3190.918	-67.908
3193.359	-59.114
3195.801	-44.820
3198.242	-25.083
3200.684	-22.518
3203.125	-32.532
3205.566	-53.888
3208.008	-64.384
3210.449	-71.788
3212.891	-77.333
3215.332	-81.587
3217.773	-86.219
3220.215	-90.002
3222.656	-89.446
3225.098	-98.290
3227.539	-100.237
3229.980	-97.390
3232.422	-100.306
3234.863	-104.456
3237.305	-101.275
3239.746	-102.633
3242.187	-107.951
3244.629	-97.507
3247.070	-98.801
3249.512	-99.351
3251.953	-94.232
3254.395	-88.290
3256.836	-92.873
3259.277	-118.562
3261.719	-103.261
3264.160	-97.660
3266.602	-92.662
3269.043	-88.056
3271.484	-91.752
3273.926	-103.363
3276.367	-100.572
3278.809	-118.724
3281.250	-109.780
3283.691	-110.939
3286.133	-110.487
3288.574	-125.568
3291.016	-111.056
3293.457	-104.403
3295.898	-96.644
3298.340	-98.677
3300.781	-102.850
3303.223	-103.420
3305.664	-107.380
3308.105	-99.518
3310.547	-101.424
3312.988	-108.557
3315.430	-105.049
3317.871	-104.082
3320.312	-102.323
3322.754	-99.818
3325.195	-102.821
3327.637	-104.620
3330.078	-107.435
3332.520	-110.437
3334.961	-103.677
3337.402	-102.089
3339.844	-100.908
3342.285	-106.549
3344.727	-111.726
3347.168	-116.554
3349.609	-103.130
3352.051	-104.335
3354.492	-116.624
3356.934	-98.020
3359.375	-98.766
3361.816	-97.037
3364.258	-96.514
3366.699	-101.070
3369.141	-92.990
3371.582	-95.275
3374.023	-88.831
3376.465	-89.721
3378.906	-83.849
3381.348	-82.472
3383.789	-78.253
3386.230	-73.745
3388.672	-68.593
3391.113	-62.034
3393.555	-52.965
3395.996	-37.885
3398.437	-20.577
3400.879	-18.951
3403.320	-30.286
3405.762	-49.686
3408.203	-59.809
3410.645	-66.930
3413.086	-72.404
3415.527	-77.181
3417.969	-80.444
3420.410	-84.965
3422.852	-85.734
3425.293	-92.408
3427.734	-90.552
3430.176	-95.271
3432.617	-94.894
3435.059	-98.452
3437.500	-98.547
3439.941	-107.014
3442.383	-99.237
3444.824	-97.951
3447.266	-103.841
3449.707	-103.682
3452.148	-103.508
3454.590	-101.648
3457.031	-101.777
3459.473	-102.199
3461.914	-108.463
3464.355	-98.893
3466.797	-100.207
3469.238	-103.244
3471.680	-110.898
3474.121	-108.160
3476.562	-106.186
3479.004	-101.731
3481.445	-101.175
3483.887	-100.444
3486.328	-102.614
3488.770	-113.148
3491.211	-102.985
3493.652	-103.297
3496.094	-102.407
3498.535	-100.596
3500.977	-94.789
3503.418	-100.107
3505.859	-106.738
3508.301	-98.604
3510.742	-99.683
3513.184	-98.085
3515.625	-99.395
3518.066	-100.168
3520.508	-99.080
3522.949	-100.676
3525.391	-107.897
3527.832	-105.659
3530.273	-106.076
3532.715	-107.947
3535.156	-99.729
3537.598	-100.408
3540.039	-96.744
3542.480	-99.567
3544.922	-97.183
3547.363	-97.266
3549.805	-97.736
3552.246	-105.093
3554.687	-99.858
3557.129	-96.209
3559.570	-97.231
3562.012	-92.642
3564.453	-100.341
3566.895	-93.058
3569.336	-95.587
3571.777	-91.429
3574.219	-89.603
3576.660	-87.511
3579.102	-84.525
3581.543	-80.956
3583.984	-77.367
3586.426	-73.031
3588.867	-67.727
3591.309	-60.996
3593.750	-51.642
3596.191	-35.586
3598.633	-20.291
3601.074	-19.596
3603.516	-32.381
3605.957	-50.220
3608.398	-60.079
3610.840	-66.990
3613.281	-72.423
3615.723	-76.908
3618.164	-80.318
3620.605	-84.258
3623.047	-87.543
3625.488	-89.726
3627.930	-90.199
3630.371	-94.006
3632.812	-97.568
3635.254	-98.185
3637.695	-95.618
3640.137	-101.785
3642.578	-100.891
3645.020	-104.402
3647.461	-105.282
3649.902	-118.191
3652.344	-98.477
3654.785	-102.486
3657.227	-101.700
3659.668	-102.566
3662.109	-102.118
3664.551	-105.787
3666.992	-104.955
3669.434	-102.721
3671.875	-103.297
3674.316	-115.527
3676.758	-113.556
3679.199	-105.202
3681.641	-107.602
3684.082	-104.366
3686.523	-105.378
3688.965	-101.301
3691.406	-102.834
3693.848	-113.293
3696.289	-105.007
3698.730	-104.708
3701.172	-111.684
3703.613	-107.938
3706.055	-113.591
3708.496	-112.333
3710.937	-100.710
3713.379	-96.801
3715.820	-103.723
3718.262	-99.856
3720.703	-104.077
3723.145	-114.084
3725.586	-112.534
3728.027	-110.414
3730.469	-102.559
3732.910	-101.308
3735.352	-103.788
3737.793	-109.925
3740.234	-116.994
3742.676	-109.702
3745.117	-108.196
3747.559	-100.684
3750.000	-120.263
3752.441	-101.832
3754.883	-102.638
3757.324	-94.573
3759.766	-98.656
3762.207	-97.729
3764.648	-102.922
3767.090	-103.855
3769.531	-96.120
3771.973	-95.711
3774.414	-93.681
3776.855	-89.888
3779.297	-89.551
3781.738	-85.227
3784.180	-81.300
3786.621	-76.917
3789.062	-71.601
3791.504	-64.493
3793.945	-55.029
3796.387	-37.794
3798.828	-24.224
3801.270	-24.455
3803.711	-38.856
3806.152	-55.474
3808.594	-64.976
3811.035	-71.795
3813.477	-77.014
3815.918	-81.393
3818.359	-84.971
3820.801	-89.993
3823.242	-89.971
3825.684	-92.751
3828.125	-101.371
3830.566	-96.958
3833.008	-102.654
3835.449	-100.511
3837.891	-103.444
3840.332	-100.920
3842.773	-114.568
3845.215	-101.480
3847.656	-104.719
3850.098	-109.705
3852.539	-102.970
3854.980	-98.373
3857.422	-112.884
3859.863	-114.055
3862.305	-112.069
3864.746	-102.129
3867.187	-109.142
3869.629	-103.305
3872.070	-99.389
3874.512	-104.487
3876.953	-100.018
3879.395	-105.989
3881.836	-104.423
3884.277	-98.094
3886.719	-96.138
3889.160	-106.094
3891.602	-106.413
3894.043	-103.254
3896.484	-104.123
3898.926	-99.079
3901.367	-101.408
3903.809	-104.061
3906.250	-117.006
3908.691	-102.132
3911.133	-95.795
3913.574	-99.065
3916.016	-101.069
3918.457	-106.161
3920.898	-103.978
3923.340	-100.461
3925.781	-104.104
3928.223	-107.153
3930.664	-98.309
3933.105	-95.531
3935.547	-102.683
3937.988	-108.195
3940.430	-105.277
3942.871	-108.836
3945.312	-103.462
3947.754	-103.342
3950.195	-106.586
3952.637	-110.390
3955.078	-108.840
3957.520	-101.347
3959.961	-102.939
3962.402	-109.692
3964.844	-101.620
3967.285	-117.069
3969.727	-103.207
3972.168	-112.349
3974.609	-122.363
3977.051	-104.607
3979.492	-106.233
3981.934	-108.744
3984.375	-107.552
3986.816	-107.170
3989.258	-101.777
3991.699	-103.329
3994.141	-112.682
3996.582	-105.659
3999.023	-94.311
4001.465	-97.900
4003.906	-103.908
4006.348	-103.479
4008.789	-108.261
4011.230	-99.692
4013.672	-101.367
4016.113	-100.685
4018.555	-102.038
4020.996	-110.593
4023.437	-111.048
4025.879	-104.588
4028.320	-107.972
4030.762	-100.443
4033.203	-101.717
4035.645	-116.266
4038.086	-111.638
4040.527	-114.173
4042.969	-108.406
4045.410	-109.707
4047.852	-106.114
4050.293	-101.669
4052.734	-95.440
4055.176	-97.009
4057.617	-117.059
4060.059	-102.082
4062.500	-103.510
4064.941	-110.751
4067.383	-107.010
4069.824	-101.757
4072.266	-100.285
4074.707	-97.469
4077.148	-100.507
4079.590	-102.866
4082.031	-102.586
4084.473	-111.602
4086.914	-119.871
4089.355	-106.737
4091.797	-100.026
4094.238	-99.002
4096.680	-106.085
4099.121	-102.479
4101.562	-101.635
4104.004	-114.197
4106.445	-113.586
4108.887	-103.719
4111.328	-100.934
4113.770	-105.834
4116.211	-106.697
4118.652	-103.540
4121.094	-104.438
4123.535	-104.959
4125.977	-98.350
4128.418	-98.632
4130.859	-103.510
4133.301	-96.731
4135.742	-98.068
4138.184	-101.606
4140.625	-105.316
4143.066	-102.017
4145.508	-100.974
4147.949	-107.464
4150.391	-99.599
4152.832	-110.020
4155.273	-107.873
4157.715	-103.248
4160.156	-103.460
4162.598	-111.032
4165.039	-98.236
4167.480	-102.304
4169.922	-100.224
4172.363	-95.856
4174.805	-95.304
4177.246	-94.902
4179.687	-87.599
4182.129	-87.285
4184.570	-82.488
4187.012	-77.868
4189.453	-72.354
4191.895	-65.098
4194.336	-54.833
4196.777	-34.506
4199.219	-23.846
4201.660	-25.940
4204.102	-44.395
4206.543	-59.059
4208.984	-68.018
4211.426	-74.435
4213.867	-79.781
4216.309	-84.279
4218.750	-85.458
4221.191	-90.934
4223.633	-93.745
4226.074	-93.825
4228.516	-102.247
4230.957	-100.635
4233.398	-102.193
4235.840	-101.947
4238.281	-108.622
4240.723	-94.706
4243.164	-104.800
4245.605	-110.537
4248.047	-108.467
4250.488	-102.572
4252.930	-101.094
4255.371	-107.525
4257.812	-108.752
4260.254	-122.503
4262.695	-115.408
4265.137	-102.045
4267.578	-101.901
4270.020	-109.792
4272.461	-106.191
4274.902	-108.061
4277.344	-100.676
4279.785	-103.994
4282.227	-106.786
4284.668	-101.548
4287.109	-100.718
4289.551	-102.412
4291.992	-100.203
4294.434	-96.193
4296.875	-99.801
4299.316	-104.764
4301.758	-100.843
4304.199	-107.356
4306.641	-103.056
4309.082	-102.682
4311.523	-106.954
4313.965	-104.837
4316.406	-99.474
4318.848	-107.095
4321.289	-110.262
4323.730	-116.169
4326.172	-100.068
4328.613	-99.276
4331.055	-101.921
4333.496	-101.909
4335.937	-97.070
4338.379	-100.887
4340.820	-100.043
4343.262	-116.051
4345.703	-101.873
4348.145	-103.247
4350.586	-101.119
4353.027	-113.316
4355.469	-110.542
4357.910	-103.685
4360.352	-108.662
4362.793	-104.469
4365.234	-96.095
4367.676	-111.903
4370.117	-93.921
4372.559	-91.571
4375.000	-102.719
4377.441	-87.871
4379.883	-87.615
4382.324	-83.293
4384.766	-80.462
4387.207	-75.360
4389.648	-69.478
4392.090	-62.202
4394.531	-51.511
4396.973	-28.927
4399.414	-19.536
4401.855	-22.577
4404.297	-43.785
4406.738	-57.697
4409.180	-66.353
4411.621	-72.641
4414.062	-77.502
4416.504	-82.974
4418.945	-84.921
4421.387	-90.084
4423.828	-89.750
4426.270	-95.448
4428.711	-94.728
4431.152	-100.717
4433.594	-100.200
4436.035	-103.575
4438.477	-99.411
4440.918	-105.017
4443.359	-107.839
4445.801	-106.397
4448.242	-101.429
4450.684	-101.821
4453.125	-104.003
4455.566	-99.550
4458.008	-99.422
4460.449	-103.171
4462.891	-109.417
4465.332	-101.279
4467.773	-106.630
4470.215	-106.848
4472.656	-109.182
4475.098	-98.240
4477.539	-96.244
4479.980	-98.445
4482.422	-99.667
4484.863	-111.687
4487.305	-106.699
4489.746	-100.350
4492.187	-101.825
4494.629	-107.807
4497.070	-104.021
4499.512	-106.644
4501.953	-95.878
4504.395	-98.698
4506.836	-102.211
4509.277	-99.739
4511.719	-101.170
4514.160	-105.602
4516.602	-104.716
4519.043	-101.171
4521.484	-101.047
4523.926	-111.185
4526.367	-111.120
4528.809	-109.452
4531.250	-108.668
4533.691	-115.094
4536.133	-108.667
4538.574	-106.714
4541.016	-112.314
4543.457	-101.889
4545.898	-104.479
4548.340	-106.803
4550.781	-103.747
4553.223	-104.259
4555.664	-108.290
4558.105	-99.917
4560.547	-105.637
4562.988	-97.017
4565.430	-105.392
4567.871	-98.282
4570.312	-100.614
4572.754	-93.926
4575.195	-107.622
4577.637	-92.232
4580.078	-89.423
4582.520	-86.351
4584.961	-83.104
4587.402	-77.943
4589.844	-72.149
4592.285	-64.697
4594.727	-53.541
4597.168	-27.646
4599.609	-19.442
4602.051	-23.448
4604.492	-48.417
4606.934	-61.648
4609.375	-69.963
4611.816	-76.583
4614.258	-81.240
4616.699	-85.128
4619.141	-89.144
4621.582	-92.698
4624.023	-93.572
4626.465	-95.564
4628.906	-100.766
4631.348	-99.292
4633.789	-112.343
4636.230	-97.224
4638.672	-105.584
4641.113	-100.646
4643.555	-111.652
4645.996	-101.769
4648.437	-101.046
4650.879	-106.574
4653.320	-111.091
4655.762	-102.394
4658.203	-102.043
4660.645	-105.077
4663.086	-104.168
4665.527	-97.230
4667.969	-108.459
4670.410	-116.778
4672.852	-106.950
4675.293	-98.805
4677.734	-101.061
4680.176	-106.358
4682.617	-110.175
4685.059	-111.594
4687.500	-115.737
4689.941	-104.179
4692.383	-100.766
4694.824	-106.037
4697.266	-102.951
4699.707	-99.937
4702.148	-100.621
4704.590	-114.471
4707.031	-105.722
4709.473	-105.755
4711.914	-108.938
4714.355	-105.121
4716.797	-108.596
4719.238	-97.753
4721.680	-96.428
4724.121	-100.547
4726.562	-104.660
4729.004	-100.680
4731.445	-99.348
4733.887	-100.485
4736.328	-102.685
4738.770	-118.846
4741.211	-109.971
4743.652	-110.969
4746.094	-112.113
4748.535	-103.757
4750.977	-103.250
4753.418	-105.160
4755.859	-109.093
4758.301	-104.628
4760.742	-101.844
4763.184	-98.397
4765.625	-99.846
4768.066	-103.454
4770.508	-115.475
4772.949	-100.489
4775.391	-96.983
4777.832	-100.928
4780.273	-97.381
4782.715	-98.593
4785.156	-91.155
4787.598	-86.665
4790.039	-82.206
4792.480	-73.889
4794.922	-62.352
4797.363	-30.650
4799.805	-23.565
4802.246	-28.565
4804.687	-59.977
4807.129	-71.934
4809.570	-80.523
4812.012	-87.506
4814.453	-91.649
4816.895	-92.602
4819.336	-98.407
4821.777	-97.732
4824.219	-100.827
4826.660	-113.806
4829.102	-104.049
4831.543	-107.887
4833.984	-110.607
4836.426	-104.128
4838.867	-102.823
4841.309	-99.218
4843.750	-100.823
4846.191	-111.487
4848.633	-103.027
4851.074	-104.669
4853.516	-97.247
4855.957	-102.108
4858.398	-99.263
4860.840	-101.100
4863.281	-108.226
4865.723	-112.443
4868.164	-105.796
4870.605	-101.078
4873.047	-103.231
4875.488	-133.043
4877.930	-112.457
4880.371	-102.662
4882.812	-99.052
4885.254	-101.428
4887.695	-100.247
4890.137	-98.363
4892.578	-102.163
4895.020	-101.573
4897.461	-102.633
4899.902	-106.418
4902.344	-101.217
4904.785	-99.242
4907.227	-98.967
4909.668	-99.213
4912.109	-107.991
4914.551	-102.566
4916.992	-107.033
4919.434	-100.718
4921.875	-97.758
4924.316	-101.190
4926.758	-102.486
4929.199	-105.988
4931.641	-104.882
4934.082	-101.493
4936.523	-110.890
4938.965	-107.789
4941.406	-106.115
4943.848	-113.878
4946.289	-107.441
4948.730	-107.851
4951.172	-108.087
4953.613	-130.999
4956.055	-106.684
4958.496	-110.081
4960.937	-107.821
4963.379	-105.268
4965.820	-111.677
4968.262	-102.476
4970.703	-103.509
4973.145	-110.518
4975.586	-107.230
4978.027	-107.219
4980.469	-106.351
4982.910	-101.337
4985.352	-105.966
4987.793	-107.696
4990.234	-117.098
4992.676	-109.996
4995.117	-107.199
4997.559	-109.080
