Freq	Power
[Hz]	[dB]
0.000	-41.652
2.441	-44.664
4.883	-108.961
7.324	-105.401
9.766	-104.503
12.207	-107.115
14.648	-108.812
17.090	-107.860
19.531	-97.437
21.973	-93.135
24.414	-94.557
26.855	-106.778
29.297	-98.810
31.738	-99.512
34.180	-100.943
36.621	-97.348
39.062	-98.836
41.504	-102.991
43.945	-105.142
46.387	-107.750
48.828	-101.832
51.270	-101.878
53.711	-105.726
56.152	-127.621
58.594	-103.362
61.035	-107.551
63.477	-109.432
65.918	-120.280
68.359	-108.762
70.801	-113.556
73.242	-111.085
75.684	-101.153
78.125	-100.613
80.566	-102.766
83.008	-102.625
85.449	-93.463
87.891	-97.187
90.332	-104.796
92.773	-112.482
95.215	-103.867
97.656	-101.295
100.098	-97.405
102.539	-96.057
104.980	-102.955
107.422	-111.706
109.863	-102.541
112.305	-103.615
114.746	-113.748
117.187	-112.180
119.629	-106.696
122.070	-120.066
124.512	-102.858
126.953	-102.716
129.395	-106.102
131.836	-102.017
134.277	-107.475
136.719	-123.441
139.160	-119.810
141.602	-103.513
144.043	-101.034
146.484	-100.219
148.926	-107.343
151.367	-108.502
153.809	-107.285
156.250	-104.067
158.691	-100.017
161.133	-98.815
163.574	-100.759
166.016	-108.727
168.457	-116.504
170.898	-106.866
173.340	-98.775
175.781	-105.326
178.223	-102.194
180.664	-104.494
183.105	-107.216
185.547	-120.990
187.988	-107.537
190.430	-106.087
192.871	-99.071
195.312	-97.989
197.754	-100.986
200.195	-101.659
202.637	-101.754
205.078	-103.234
207.520	-104.782
209.961	-100.202
212.402	-99.500
214.844	-103.000
217.285	-108.743
219.727	-100.477
222.168	-96.037
224.609	-99.256
227.051	-109.287
229.492	-103.367
231.934	-102.183
234.375	-101.294
236.816	-105.140
239.258	-102.295
241.699	-96.329
244.141	-102.490
246.582	-107.298
249.023	-103.787
251.465	-105.791
253.906	-104.893
256.348	-101.102
258.789	-101.398
261.230	-91.563
263.672	-91.879
266.113	-107.703
268.555	-113.425
270.996	-109.161
273.437	-108.569
275.879	-113.611
278.320	-111.376
280.762	-108.757
283.203	-111.668
285.645	-102.319
288.086	-104.111
290.527	-112.336
292.969	-102.933
295.410	-105.098
297.852	-119.238
300.293	-109.651
302.734	-106.007
305.176	-114.528
307.617	-108.047
310.059	-104.541
312.500	-102.812
314.941	-101.194
317.383	-104.434
319.824	-107.998
322.266	-123.245
324.707	-112.412
327.148	-102.399
329.590	-105.800
332.031	-110.498
334.473	-104.364
336.914	-100.184
339.355	-119.536
341.797	-102.372
344.238	-102.131
346.680	-94.029
349.121	-93.929
351.562	-100.961
354.004	-110.303
356.445	-115.649
358.887	-109.050
361.328	-97.142
363.770	-99.494
366.211	-103.041
368.652	-101.461
371.094	-102.621
373.535	-95.972
375.977	-95.663
378.418	-112.603
380.859	-99.344
383.301	-96.787
385.742	-97.019
388.184	-101.017
390.625	-100.656
393.066	-104.395
395.508	-108.293
397.949	-107.908
400.391	-107.618
402.832	-105.664
405.273	-105.209
407.715	-112.614
410.156	-113.104
412.598	-106.810
415.039	-103.909
417.480	-105.403
419.922	-101.772
422.363	-114.051
424.805	-101.277
427.246	-96.380
429.687	-95.226
432.129	-95.762
434.570	-102.977
437.012	-108.927
439.453	-106.421
441.895	-104.221
444.336	-101.253
446.777	-100.092
449.219	-99.796
451.660	-102.273
454.102	-112.408
456.543	-120.434
458.984	-113.531
461.426	-103.868
463.867	-106.199
466.309	-100.851
468.750	-100.627
471.191	-112.356
473.633	-111.871
476.074	-104.048
478.516	-103.379
480.957	-107.213
483.398	-101.446
485.840	-102.439
488.281	-108.462
490.723	-105.877
493.164	-99.943
495.605	-101.497
498.047	-104.540
500.488	-104.011
502.930	-109.151
505.371	-102.121
507.812	-104.781
510.254	-100.159
512.695	-99.938
515.137	-110.078
517.578	-120.850
520.020	-116.462
522.461	-106.579
524.902	-107.248
527.344	-100.615
529.785	-102.124
532.227	-110.975
534.668	-114.427
537.109	-110.788
539.551	-114.607
541.992	-110.751
544.434	-117.921
546.875	-111.016
549.316	-101.899
551.758	-98.581
554.199	-103.943
556.641	-97.223
559.082	-95.817
561.523	-99.413
563.965	-103.548
566.406	-109.821
568.848	-114.498
571.289	-114.633
573.730	-108.215
576.172	-114.293
578.613	-108.914
581.055	-108.525
583.496	-102.605
585.937	-101.327
588.379	-114.813
590.820	-111.855
593.262	-102.757
595.703	-100.124
598.145	-105.781
600.586	-103.779
603.027	-98.300
605.469	-102.396
607.910	-93.161
610.352	-89.104
612.793	-97.060
615.234	-109.429
617.676	-112.150
620.117	-104.627
622.559	-100.762
625.000	-101.032
627.441	-105.628
629.883	-99.035
632.324	-95.940
634.766	-100.609
637.207	-102.075
639.648	-116.480
642.090	-100.187
644.531	-101.059
646.973	-106.867
649.414	-102.336
651.855	-103.078
654.297	-108.363
656.738	-116.842
659.180	-103.411
661.621	-106.165
664.062	-104.276
666.504	-106.008
668.945	-101.111
671.387	-98.580
673.828	-106.010
676.270	-124.733
678.711	-106.601
681.152	-102.265
683.594	-101.332
686.035	-101.240
688.477	-98.750
690.918	-99.272
693.359	-103.946
695.801	-101.197
698.242	-100.674
700.684	-100.979
703.125	-102.018
705.566	-110.071
708.008	-99.866
710.449	-98.068
712.891	-104.443
715.332	-100.614
717.773	-115.318
720.215	-99.997
722.656	-100.792
725.098	-114.054
727.539	-126.113
729.980	-100.092
732.422	-102.111
734.863	-104.700
737.305	-108.395
739.746	-103.651
742.187	-101.840
744.629	-100.193
747.070	-104.009
749.512	-100.714
751.953	-98.141
754.395	-100.081
756.836	-102.091
759.277	-103.566
761.719	-106.278
764.160	-108.943
766.602	-109.926
769.043	-111.283
771.484	-110.148
773.926	-110.765
776.367	-104.430
778.809	-97.574
781.250	-97.643
783.691	-105.087
786.133	-112.735
788.574	-107.892
791.016	-102.124
793.457	-104.022
795.898	-105.767
798.340	-108.641
800.781	-105.503
803.223	-97.148
805.664	-98.522
808.105	-100.982
810.547	-106.130
812.988	-109.677
815.430	-105.630
817.871	-105.127
820.312	-104.692
822.754	-101.386
825.195	-102.275
827.637	-102.672
830.078	-103.309
832.520	-105.836
834.961	-101.553
837.402	-99.511
839.844	-104.093
842.285	-98.350
844.727	-97.060
847.168	-97.440
849.609	-105.676
852.051	-105.127
854.492	-107.492
856.934	-105.276
859.375	-100.323
861.816	-98.883
864.258	-104.994
866.699	-114.922
869.141	-101.483
871.582	-100.573
874.023	-116.089
876.465	-104.615
878.906	-101.986
881.348	-108.846
883.789	-117.220
886.230	-107.359
888.672	-106.296
891.113	-101.431
893.555	-100.108
895.996	-106.417
898.437	-111.879
900.879	-113.507
903.320	-117.900
905.762	-110.036
908.203	-101.231
910.645	-103.758
913.086	-121.559
915.527	-114.157
917.969	-115.225
920.410	-110.464
922.852	-102.987
925.293	-105.129
927.734	-108.174
930.176	-106.344
932.617	-102.777
935.059	-103.104
937.500	-107.577
939.941	-102.147
942.383	-98.792
944.824	-102.236
947.266	-103.850
949.707	-108.182
952.148	-103.994
954.590	-98.296
957.031	-86.814
959.473	-90.852
961.914	-101.358
964.355	-103.648
966.797	-117.272
969.238	-127.060
971.680	-106.693
974.121	-109.947
976.562	-103.417
979.004	-105.159
981.445	-107.047
983.887	-107.412
986.328	-101.435
988.770	-101.643
991.211	-102.329
993.652	-101.942
996.094	-112.426
998.535	-105.513
1000.977	-98.323
1003.418	-102.532
1005.859	-106.680
1008.301	-102.778
1010.742	-112.123
1013.184	-104.489
1015.625	-102.466
1018.066	-108.024
1020.508	-99.539
1022.949	-97.849
1025.391	-107.661
1027.832	-107.610
1030.273	-109.372
1032.715	-97.327
1035.156	-99.506
1037.598	-111.225
1040.039	-120.845
1042.480	-115.995
1044.922	-107.218
1047.363	-104.620
1049.805	-112.010
1052.246	-101.414
1054.687	-101.428
1057.129	-103.778
1059.570	-107.964
1062.012	-118.088
1064.453	-114.516
1066.895	-124.375
1069.336	-109.433
1071.777	-107.171
1074.219	-131.507
1076.660	-112.748
1079.102	-110.794
1081.543	-98.371
1083.984	-99.453
1086.426	-101.962
1088.867	-101.720
1091.309	-112.254
1093.750	-93.950
1096.191	-93.408
1098.633	-97.124
1101.074	-99.315
1103.516	-100.567
1105.957	-102.789
1108.398	-109.129
1110.840	-99.937
1113.281	-99.476
1115.723	-104.091
1118.164	-101.938
1120.605	-99.332
1123.047	-100.413
1125.488	-99.912
1127.930	-97.509
1130.371	-100.255
1132.812	-101.190
1135.254	-107.434
1137.695	-115.619
1140.137	-107.319
1142.578	-114.681
1145.020	-103.932
1147.461	-100.919
1149.902	-116.163
1152.344	-109.283
1154.785	-102.610
1157.227	-101.032
1159.668	-117.110
1162.109	-102.484
1164.551	-105.854
1166.992	-108.590
1169.434	-110.627
1171.875	-108.312
1174.316	-104.841
1176.758	-108.434
1179.199	-102.512
1181.641	-106.492
1184.082	-110.979
1186.523	-109.348
1188.965	-105.795
1191.406	-106.516
1193.848	-105.819
1196.289	-105.664
1198.730	-108.414
1201.172	-117.211
1203.613	-110.347
1206.055	-111.320
1208.496	-113.665
1210.937	-107.932
1213.379	-105.284
1215.820	-114.132
1218.262	-104.586
1220.703	-109.677
1223.145	-113.228
1225.586	-116.644
1228.027	-110.678
1230.469	-103.581
1232.910	-100.113
1235.352	-98.264
1237.793	-104.399
1240.234	-105.584
1242.676	-102.360
1245.117	-104.128
1247.559	-106.752
1250.000	-106.711
1252.441	-107.759
1254.883	-103.620
1257.324	-104.168
1259.766	-101.220
1262.207	-104.357
1264.648	-111.163
1267.090	-118.888
1269.531	-103.635
1271.973	-98.853
1274.414	-99.603
1276.855	-95.838
1279.297	-95.443
1281.738	-106.533
1284.180	-105.399
1286.621	-100.360
1289.062	-101.582
1291.504	-104.876
1293.945	-101.352
1296.387	-101.687
1298.828	-118.026
1301.270	-102.019
1303.711	-86.239
1306.152	-86.191
1308.594	-105.949
1311.035	-100.855
1313.477	-101.147
1315.918	-103.697
1318.359	-103.893
1320.801	-115.737
1323.242	-103.023
1325.684	-104.162
1328.125	-104.134
1330.566	-102.629
1333.008	-108.907
1335.449	-101.963
1337.891	-99.873
1340.332	-103.642
1342.773	-100.341
1345.215	-100.747
1347.656	-103.009
1350.098	-108.551
1352.539	-104.748
1354.980	-102.236
1357.422	-107.489
1359.863	-106.061
1362.305	-98.968
1364.746	-97.497
1367.187	-103.380
1369.629	-109.994
1372.070	-104.198
1374.512	-112.437
1376.953	-102.701
1379.395	-107.256
1381.836	-106.187
1384.277	-103.687
1386.719	-108.087
1389.160	-101.477
1391.602	-107.638
1394.043	-104.754
1396.484	-107.785
1398.926	-107.690
1401.367	-112.265
1403.809	-106.510
1406.250	-113.534
1408.691	-107.783
1411.133	-101.851
1413.574	-97.889
1416.016	-98.375
1418.457	-100.158
1420.898	-109.754
1423.340	-95.481
1425.781	-101.843
1428.223	-106.253
1430.664	-100.865
1433.105	-101.232
1435.547	-100.589
1437.988	-98.351
1440.430	-99.677
1442.871	-100.831
1445.312	-99.324
1447.754	-99.727
1450.195	-102.978
1452.637	-118.734
1455.078	-110.517
1457.520	-104.576
1459.961	-105.461
1462.402	-102.909
1464.844	-104.674
1467.285	-104.724
1469.727	-109.107
1472.168	-103.609
1474.609	-96.668
1477.051	-104.012
1479.492	-123.156
1481.934	-103.271
1484.375	-98.910
1486.816	-101.814
1489.258	-109.658
1491.699	-110.323
1494.141	-115.755
1496.582	-108.783
1499.023	-102.608
1501.465	-101.975
1503.906	-104.902
1506.348	-127.614
1508.789	-119.937
1511.230	-105.617
1513.672	-99.586
1516.113	-99.520
1518.555	-102.180
1520.996	-107.709
1523.437	-99.901
1525.879	-100.798
1528.320	-105.391
1530.762	-106.863
1533.203	-118.223
1535.645	-110.118
1538.086	-105.225
1540.527	-108.579
1542.969	-115.903
1545.410	-104.580
1547.852	-102.008
1550.293	-104.002
1552.734	-104.119
1555.176	-105.502
1557.617	-105.779
1560.059	-101.598
1562.500	-101.119
1564.941	-100.107
1567.383	-114.545
1569.824	-97.574
1572.266	-97.823
1574.707	-103.149
1577.148	-102.802
1579.590	-102.105
1582.031	-107.378
1584.473	-104.106
1586.914	-107.598
1589.355	-115.296
1591.797	-105.620
1594.238	-103.071
1596.680	-105.868
1599.121	-106.836
1601.562	-113.193
1604.004	-116.252
1606.445	-105.476
1608.887	-100.032
1611.328	-104.371
1613.770	-108.023
1616.211	-106.389
1618.652	-100.355
1621.094	-97.613
1623.535	-97.956
1625.977	-101.446
1628.418	-100.846
1630.859	-95.098
1633.301	-102.992
1635.742	-107.513
1638.184	-98.265
1640.625	-101.248
1643.066	-121.855
1645.508	-114.038
1647.949	-102.664
1650.391	-85.088
1652.832	-80.619
1655.273	-87.403
1657.715	-108.691
1660.156	-102.802
1662.598	-112.134
1665.039	-99.505
1667.480	-106.263
1669.922	-106.766
1672.363	-104.014
1674.805	-107.434
1677.246	-108.871
1679.687	-98.647
1682.129	-97.464
1684.570	-102.160
1687.012	-95.583
1689.453	-100.402
1691.895	-108.437
1694.336	-101.222
1696.777	-98.641
1699.219	-102.539
1701.660	-105.198
1704.102	-121.639
1706.543	-112.329
1708.984	-105.194
1711.426	-105.022
1713.867	-102.237
1716.309	-100.438
1718.750	-105.212
1721.191	-111.424
1723.633	-112.998
1726.074	-105.964
1728.516	-100.705
1730.957	-100.919
1733.398	-116.153
1735.840	-104.824
1738.281	-103.975
1740.723	-114.020
1743.164	-103.945
1745.605	-102.663
1748.047	-99.812
1750.488	-97.572
1752.930	-101.653
1755.371	-109.696
1757.812	-100.353
1760.254	-97.497
1762.695	-102.974
1765.137	-110.265
1767.578	-97.075
1770.020	-99.394
1772.461	-110.632
1774.902	-106.941
1777.344	-103.297
1779.785	-99.453
1782.227	-100.153
1784.668	-102.791
1787.109	-103.983
1789.551	-106.212
1791.992	-115.205
1794.434	-108.893
1796.875	-107.423
1799.316	-103.132
1801.758	-98.986
1804.199	-97.797
1806.641	-105.063
1809.082	-103.791
1811.523	-103.021
1813.965	-101.973
1816.406	-106.202
1818.848	-102.078
1821.289	-99.455
1823.730	-103.721
1826.172	-105.108
1828.613	-113.077
1831.055	-105.930
1833.496	-97.288
1835.937	-97.723
1838.379	-107.339
1840.820	-103.549
1843.262	-105.904
1845.703	-98.302
1848.145	-103.320
1850.586	-102.184
1853.027	-108.092
1855.469	-102.390
1857.910	-103.729
1860.352	-98.549
1862.793	-98.676
1865.234	-97.189
1867.676	-96.972
1870.117	-106.238
1872.559	-101.563
1875.000	-102.199
1877.441	-101.016
1879.883	-104.232
1882.324	-102.377
1884.766	-103.466
1887.207	-109.073
1889.648	-106.448
1892.090	-98.097
1894.531	-99.647
1896.973	-96.555
1899.414	-95.782
1901.855	-102.245
1904.297	-133.325
1906.738	-98.185
1909.180	-107.500
1911.621	-96.411
1914.062	-99.923
1916.504	-97.632
1918.945	-104.823
1921.387	-103.333
1923.828	-93.278
1926.270	-100.557
1928.711	-92.757
1931.152	-97.471
1933.594	-96.544
1936.035	-92.624
1938.477	-88.758
1940.918	-107.745
1943.359	-87.395
1945.801	-88.688
1948.242	-89.861
1950.684	-85.378
1953.125	-86.640
1955.566	-83.101
1958.008	-83.577
1960.449	-80.987
1962.891	-79.614
1965.332	-77.300
1967.773	-76.180
1970.215	-73.385
1972.656	-71.602
1975.098	-68.956
1977.539	-66.250
1979.980	-63.308
1982.422	-59.895
1984.863	-55.857
1987.305	-51.207
1989.746	-45.464
1992.187	-37.983
1994.629	-27.097
1997.070	-2.958
1999.512	5.808
2001.953	2.270
2004.395	-20.716
2006.836	-34.239
2009.277	-42.753
2011.719	-49.088
2014.160	-54.116
2016.602	-58.351
2019.043	-61.995
2021.484	-65.114
2023.926	-67.856
2026.367	-70.637
2028.809	-72.995
2031.250	-74.649
2033.691	-77.279
2036.133	-78.906
2038.574	-79.298
2041.016	-81.976
2043.457	-83.851
2045.898	-85.107
2048.340	-86.602
2050.781	-87.532
2053.223	-88.621
2055.664	-91.597
2058.105	-87.852
2060.547	-96.152
2062.988	-91.887
2065.430	-94.282
2067.871	-96.831
2070.312	-94.705
2072.754	-93.928
2075.195	-117.200
2077.637	-95.165
2080.078	-95.803
2082.520	-111.518
2084.961	-98.486
2087.402	-105.082
2089.844	-101.020
2092.285	-100.315
2094.727	-100.280
2097.168	-109.169
2099.609	-101.558
2102.051	-99.447
2104.492	-104.241
2106.934	-105.600
2109.375	-96.495
2111.816	-101.762
2114.258	-100.408
2116.699	-110.840
2119.141	-101.266
2121.582	-101.064
2124.023	-98.128
2126.465	-103.456
2128.906	-99.400
2131.348	-103.459
2133.789	-103.314
2136.230	-100.607
2138.672	-96.892
2141.113	-99.510
2143.555	-105.049
2145.996	-100.731
2148.437	-109.710
2150.879	-103.462
2153.320	-100.414
2155.762	-109.653
2158.203	-105.850
2160.645	-108.751
2163.086	-125.355
2165.527	-104.171
2167.969	-99.858
2170.410	-95.095
2172.852	-99.471
2175.293	-101.900
2177.734	-101.816
2180.176	-101.261
2182.617	-103.415
2185.059	-101.990
2187.500	-98.268
2189.941	-96.364
2192.383	-105.707
2194.824	-116.767
2197.266	-108.510
2199.707	-102.992
2202.148	-104.868
2204.590	-106.097
2207.031	-100.012
2209.473	-102.262
2211.914	-104.012
2214.355	-105.052
2216.797	-122.730
2219.238	-112.547
2221.680	-116.993
2224.121	-109.449
2226.562	-113.684
2229.004	-102.987
2231.445	-98.502
2233.887	-99.862
2236.328	-104.408
2238.770	-107.421
2241.211	-122.371
2243.652	-113.169
2246.094	-110.163
2248.535	-103.892
2250.977	-98.870
2253.418	-102.724
2255.859	-103.481
2258.301	-115.552
2260.742	-102.922
2263.184	-100.300
2265.625	-98.393
2268.066	-105.081
2270.508	-102.472
2272.949	-98.113
2275.391	-103.280
2277.832	-107.902
2280.273	-101.321
2282.715	-98.659
2285.156	-97.853
2287.598	-111.298
2290.039	-99.688
2292.480	-103.443
2294.922	-109.187
2297.363	-107.325
2299.805	-141.024
2302.246	-107.883
2304.687	-106.891
2307.129	-109.185
2309.570	-103.431
2312.012	-99.728
2314.453	-104.076
2316.895	-106.432
2319.336	-106.891
2321.777	-122.336
2324.219	-107.939
2326.660	-102.079
2329.102	-106.037
2331.543	-108.749
2333.984	-106.054
2336.426	-98.590
2338.867	-103.720
2341.309	-102.481
2343.750	-95.833
2346.191	-82.266
2348.633	-81.863
2351.074	-94.946
2353.516	-99.380
2355.957	-104.516
2358.398	-104.208
2360.840	-106.797
2363.281	-108.311
2365.723	-112.304
2368.164	-111.619
2370.605	-102.255
2373.047	-99.947
2375.488	-103.136
2377.930	-106.579
2380.371	-110.660
2382.812	-105.433
2385.254	-96.914
2387.695	-99.349
2390.137	-103.964
2392.578	-107.192
2395.020	-107.868
2397.461	-103.917
2399.902	-112.212
2402.344	-108.882
2404.785	-104.591
2407.227	-102.366
2409.668	-110.136
2412.109	-114.842
2414.551	-105.497
2416.992	-100.481
2419.434	-107.902
2421.875	-102.235
2424.316	-104.668
2426.758	-104.410
2429.199	-105.433
2431.641	-107.551
2434.082	-105.264
2436.523	-108.031
2438.965	-116.645
2441.406	-109.368
2443.848	-102.139
2446.289	-100.601
2448.730	-101.467
2451.172	-97.075
2453.613	-97.084
2456.055	-109.396
2458.496	-107.769
2460.937	-106.172
2463.379	-108.058
2465.820	-108.098
2468.262	-114.953
2470.703	-104.139
2473.145	-102.322
2475.586	-101.580
2478.027	-106.074
2480.469	-105.193
2482.910	-114.319
2485.352	-109.736
2487.793	-107.275
2490.234	-100.374
2492.676	-95.575
2495.117	-95.611
2497.559	-99.256
2500.000	-104.932
2502.441	-101.422
2504.883	-101.892
2507.324	-104.349
2509.766	-107.648
2512.207	-102.173
2514.648	-101.758
2517.090	-98.826
2519.531	-105.504
2521.973	-119.605
2524.414	-102.131
2526.855	-99.313
2529.297	-99.973
2531.738	-102.529
2534.180	-101.377
2536.621	-102.014
2539.062	-108.531
2541.504	-103.052
2543.945	-103.706
2546.387	-107.568
2548.828	-104.180
2551.270	-102.363
2553.711	-104.501
2556.152	-100.601
2558.594	-99.057
2561.035	-102.959
2563.477	-111.041
2565.918	-126.539
2568.359	-104.687
2570.801	-104.868
2573.242	-112.929
2575.684	-101.767
2578.125	-102.185
2580.566	-100.838
2583.008	-104.792
2585.449	-108.403
2587.891	-106.673
2590.332	-109.467
2592.773	-110.412
2595.215	-102.120
2597.656	-99.940
2600.098	-104.379
2602.539	-110.398
2604.980	-103.808
2607.422	-103.813
2609.863	-107.745
2612.305	-114.307
2614.746	-111.050
2617.187	-108.828
2619.629	-118.563
2622.070	-117.092
2624.512	-113.159
2626.953	-117.949
2629.395	-105.894
2631.836	-105.777
2634.277	-105.332
2636.719	-105.392
2639.160	-111.816
2641.602	-111.520
2644.043	-107.061
2646.484	-98.744
2648.926	-98.500
2651.367	-93.048
2653.809	-86.884
2656.250	-92.826
2658.691	-100.885
2661.133	-102.990
2663.574	-105.737
2666.016	-118.761
2668.457	-103.535
2670.898	-109.042
2673.340	-98.626
2675.781	-93.257
2678.223	-95.450
2680.664	-106.748
2683.105	-118.465
2685.547	-105.310
2687.988	-102.822
2690.430	-105.688
2692.871	-88.117
2695.312	-84.643
2697.754	-94.662
2700.195	-99.746
2702.637	-99.648
2705.078	-102.867
2707.520	-116.752
2709.961	-107.529
2712.402	-109.684
2714.844	-104.905
2717.285	-103.297
2719.727	-105.496
2722.168	-99.825
2724.609	-102.497
2727.051	-112.302
2729.492	-107.243
2731.934	-104.708
2734.375	-104.050
2736.816	-103.753
2739.258	-111.115
2741.699	-107.023
2744.141	-99.522
2746.582	-100.904
2749.023	-104.176
2751.465	-103.789
2753.906	-107.740
2756.348	-97.347
2758.789	-100.487
2761.230	-101.220
2763.672	-96.117
2766.113	-95.569
2768.555	-97.551
2770.996	-104.965
2773.437	-112.106
2775.879	-115.460
2778.320	-104.594
2780.762	-108.297
2783.203	-102.997
2785.645	-106.842
2788.086	-115.774
2790.527	-102.955
2792.969	-108.733
2795.410	-106.439
2797.852	-107.240
2800.293	-107.249
2802.734	-114.863
2805.176	-109.893
2807.617	-98.688
2810.059	-98.552
2812.500	-100.512
2814.941	-104.623
2817.383	-103.465
2819.824	-118.194
2822.266	-117.830
2824.707	-105.881
2827.148	-104.007
2829.590	-110.539
2832.031	-103.677
2834.473	-108.097
2836.914	-108.249
2839.355	-100.398
2841.797	-99.130
2844.238	-107.562
2846.680	-107.416
2849.121	-107.286
2851.562	-105.302
2854.004	-97.892
2856.445	-100.086
2858.887	-103.483
2861.328	-112.449
2863.770	-100.545
2866.211	-101.392
2868.652	-105.347
2871.094	-114.449
2873.535	-100.843
2875.977	-99.765
2878.418	-104.536
2880.859	-100.352
2883.301	-99.451
2885.742	-104.502
2888.184	-114.537
2890.625	-108.431
2893.066	-104.676
2895.508	-112.785
2897.949	-108.699
2900.391	-102.827
2902.832	-101.185
2905.273	-102.521
2907.715	-100.053
2910.156	-97.129
2912.598	-98.315
2915.039	-106.396
2917.480	-99.730
2919.922	-105.181
2922.363	-104.171
2924.805	-102.548
2927.246	-112.814
2929.687	-103.053
2932.129	-100.960
2934.570	-106.758
2937.012	-110.583
2939.453	-114.664
2941.895	-105.754
2944.336	-99.768
2946.777	-106.966
2949.219	-103.540
2951.660	-96.421
2954.102	-97.592
2956.543	-103.122
2958.984	-106.618
2961.426	-109.698
2963.867	-101.013
2966.309	-105.869
2968.750	-104.870
2971.191	-100.842
2973.633	-102.556
2976.074	-114.649
2978.516	-110.940
2980.957	-104.411
2983.398	-107.441
2985.840	-106.304
2988.281	-104.475
2990.723	-107.424
2993.164	-104.063
2995.605	-102.924
2998.047	-104.319
3000.488	-104.387
3002.930	-99.926
3005.371	-97.714
3007.812	-106.246
3010.254	-102.294
3012.695	-98.824
3015.137	-104.675
3017.578	-133.827
3020.020	-103.655
3022.461	-100.537
3024.902	-102.662
3027.344	-105.080
3029.785	-115.128
3032.227	-104.232
3034.668	-106.912
3037.109	-107.646
3039.551	-94.094
3041.992	-85.894
3044.434	-89.905
3046.875	-102.554
3049.316	-124.683
3051.758	-104.462
3054.199	-99.161
3056.641	-101.216
3059.082	-102.522
3061.523	-99.639
3063.965	-103.884
3066.406	-107.783
3068.848	-104.023
3071.289	-103.784
3073.730	-108.513
3076.172	-106.368
3078.613	-102.261
3081.055	-102.202
3083.496	-105.982
3085.937	-100.439
3088.379	-103.366
3090.820	-103.865
3093.262	-105.337
3095.703	-103.964
3098.145	-103.909
3100.586	-98.918
3103.027	-107.169
3105.469	-104.487
3107.910	-107.754
3110.352	-102.033
3112.793	-105.922
3115.234	-112.894
3117.676	-103.973
3120.117	-100.052
3122.559	-97.757
3125.000	-99.432
3127.441	-99.894
3129.883	-100.268
3132.324	-110.822
3134.766	-99.136
3137.207	-100.429
3139.648	-102.995
3142.090	-99.494
3144.531	-106.609
3146.973	-108.904
3149.414	-102.921
3151.855	-105.953
3154.297	-110.536
3156.738	-107.569
3159.180	-107.698
3161.621	-104.825
3164.062	-105.853
3166.504	-111.884
3168.945	-102.871
3171.387	-108.027
3173.828	-117.185
3176.270	-110.046
3178.711	-103.356
3181.152	-103.702
3183.594	-104.420
3186.035	-101.385
3188.477	-104.700
3190.918	-100.038
3193.359	-98.638
3195.801	-99.353
3198.242	-101.244
3200.684	-99.898
3203.125	-96.551
3205.566	-96.296
3208.008	-101.375
3210.449	-102.785
3212.891	-98.547
3215.332	-107.822
3217.773	-103.895
3220.215	-103.184
3222.656	-98.799
3225.098	-115.659
3227.539	-101.629
3229.980	-97.798
3232.422	-100.300
3234.863	-106.765
3237.305	-98.075
3239.746	-95.743
3242.187	-96.696
3244.629	-99.845
3247.070	-105.292
3249.512	-107.324
3251.953	-107.651
3254.395	-107.410
3256.836	-109.562
3259.277	-112.464
3261.719	-101.564
3264.160	-102.456
3266.602	-95.280
3269.043	-90.397
3271.484	-96.530
3273.926	-110.316
3276.367	-104.669
3278.809	-97.961
3281.250	-101.499
3283.691	-96.076
3286.133	-99.707
3288.574	-111.570
3291.016	-107.047
3293.457	-109.961
3295.898	-104.405
3298.340	-97.873
3300.781	-101.542
3303.223	-102.880
3305.664	-101.167
3308.105	-101.107
3310.547	-104.281
3312.988	-96.812
3315.430	-102.249
3317.871	-117.848
3320.312	-112.846
3322.754	-103.254
3325.195	-97.544
3327.637	-103.750
3330.078	-110.875
3332.520	-100.819
3334.961	-105.585
3337.402	-103.922
3339.844	-107.475
3342.285	-104.353
3344.727	-100.762
3347.168	-97.627
3349.609	-96.993
3352.051	-109.510
3354.492	-104.091
3356.934	-102.337
3359.375	-103.821
3361.816	-112.560
3364.258	-113.376
3366.699	-107.518
3369.141	-97.575
3371.582	-100.524
3374.023	-131.477
3376.465	-105.944
3378.906	-104.693
3381.348	-103.813
3383.789	-102.686
3386.230	-98.201
3388.672	-89.571
3391.113	-88.162
3393.555	-98.224
3395.996	-102.002
3398.437	-103.496
3400.879	-110.204
3403.320	-107.588
3405.762	-108.450
3408.203	-107.713
3410.645	-96.941
3413.086	-96.263
3415.527	-101.361
3417.969	-108.270
3420.410	-114.982
3422.852	-108.258
3425.293	-104.197
3427.734	-104.043
3430.176	-102.754
3432.617	-104.650
3435.059	-112.569
3437.500	-99.283
3439.941	-98.248
3442.383	-100.315
3444.824	-103.528
3447.266	-107.552
3449.707	-99.944
3452.148	-99.560
3454.590	-107.305
3457.031	-104.053
3459.473	-99.284
3461.914	-103.275
3464.355	-103.822
3466.797	-109.614
3469.238	-105.805
3471.680	-101.292
3474.121	-108.397
3476.562	-103.437
3479.004	-103.478
3481.445	-106.623
3483.887	-105.644
3486.328	-109.179
3488.770	-107.961
3491.211	-122.602
3493.652	-114.718
3496.094	-106.911
3498.535	-104.780
3500.977	-102.893
3503.418	-100.002
3505.859	-99.825
3508.301	-104.431
3510.742	-110.614
3513.184	-100.299
3515.625	-99.477
3518.066	-97.395
3520.508	-96.830
3522.949	-101.791
3525.391	-96.695
3527.832	-95.998
3530.273	-108.184
3532.715	-104.754
3535.156	-100.145
3537.598	-101.072
3540.039	-105.742
3542.480	-103.185
3544.922	-104.765
3547.363	-106.520
3549.805	-102.438
3552.246	-103.897
3554.687	-104.066
3557.129	-104.903
3559.570	-103.168
3562.012	-99.956
3564.453	-97.982
3566.895	-105.437
3569.336	-100.606
3571.777	-92.346
3574.219	-94.735
3576.660	-115.751
3579.102	-105.789
3581.543	-104.396
3583.984	-101.370
3586.426	-106.456
3588.867	-108.110
3591.309	-105.486
3593.750	-105.848
3596.191	-110.271
3598.633	-105.080
3601.074	-101.098
3603.516	-104.399
3605.957	-100.907
3608.398	-101.341
3610.840	-104.556
3613.281	-118.275
3615.723	-109.532
3618.164	-109.420
3620.605	-107.452
3623.047	-105.290
3625.488	-105.695
3627.930	-104.421
3630.371	-103.507
3632.812	-101.582
3635.254	-99.307
3637.695	-99.285
3640.137	-96.351
3642.578	-99.852
3645.020	-114.077
3647.461	-109.041
3649.902	-104.557
3652.344	-113.262
3654.785	-103.476
3657.227	-110.892
3659.668	-109.171
3662.109	-102.953
3664.551	-103.300
3666.992	-102.627
3669.434	-107.155
3671.875	-97.924
3674.316	-98.590
3676.758	-105.431
3679.199	-104.485
3681.641	-111.962
3684.082	-98.839
3686.523	-100.498
3688.965	-101.177
3691.406	-99.679
3693.848	-123.318
3696.289	-103.714
3698.730	-99.675
3701.172	-99.060
3703.613	-113.246
3706.055	-106.158
3708.496	-100.243
3710.937	-101.319
3713.379	-116.778
3715.820	-103.505
3718.262	-97.600
3720.703	-98.691
3723.145	-101.279
3725.586	-101.251
3728.027	-101.251
3730.469	-101.084
3732.910	-95.675
3735.352	-97.340
3737.793	-89.681
3740.234	-96.395
3742.676	-107.230
3745.117	-115.631
3747.559	-102.684
3750.000	-103.776
3752.441	-106.042
3754.883	-102.576
3757.324	-96.453
3759.766	-94.458
3762.207	-102.230
3764.648	-121.818
3767.090	-105.250
3769.531	-100.857
3771.973	-105.662
3774.414	-105.308
3776.855	-97.019
3779.297	-94.830
3781.738	-97.878
3784.180	-107.802
3786.621	-115.719
3789.062	-99.022
3791.504	-101.373
3793.945	-105.103
3796.387	-99.272
3798.828	-98.953
3801.270	-103.083
3803.711	-116.199
3806.152	-118.769
3808.594	-110.315
3811.035	-106.026
3813.477	-101.483
3815.918	-106.503
3818.359	-102.181
3820.801	-103.037
3823.242	-113.477
3825.684	-117.082
3828.125	-97.071
3830.566	-96.824
3833.008	-103.349
3835.449	-108.644
3837.891	-104.683
3840.332	-115.800
3842.773	-114.143
3845.215	-99.385
3847.656	-101.254
3850.098	-121.308
3852.539	-105.256
3854.980	-105.922
3857.422	-115.294
3859.863	-105.606
3862.305	-103.581
3864.746	-109.402
3867.187	-113.942
3869.629	-107.928
3872.070	-111.487
3874.512	-116.660
3876.953	-107.959
3879.395	-104.024
3881.836	-108.385
3884.277	-95.658
3886.719	-98.164
3889.160	-100.248
3891.602	-101.851
3894.043	-107.283
3896.484	-100.272
3898.926	-101.843
3901.367	-100.630
3903.809	-100.087
3906.250	-103.808
3908.691	-99.051
3911.133	-104.888
3913.574	-99.690
3916.016	-98.942
3918.457	-107.992
3920.898	-115.365
3923.340	-107.145
3925.781	-105.277
3928.223	-111.321
3930.664	-124.236
3933.105	-118.323
3935.547	-103.025
3937.988	-99.380
3940.430	-101.909
3942.871	-106.527
3945.312	-106.483
3947.754	-114.971
3950.195	-101.525
3952.637	-99.545
3955.078	-107.299
3957.520	-105.202
3959.961	-104.434
3962.402	-102.868
3964.844	-98.638
3967.285	-98.041
3969.727	-99.778
3972.168	-104.287
3974.609	-108.714
3977.051	-104.495
3979.492	-100.378
3981.934	-100.320
3984.375	-111.212
3986.816	-107.759
3989.258	-102.322
3991.699	-106.702
3994.141	-105.614
3996.582	-84.622
3999.023	-75.701
4001.465	-78.143
4003.906	-95.125
4006.348	-93.911
4008.789	-99.067
4011.230	-102.414
4013.672	-101.044
4016.113	-100.611
4018.555	-109.668
4020.996	-102.480
4023.437	-111.155
4025.879	-98.575
4028.320	-100.221
4030.762	-112.461
4033.203	-104.566
4035.645	-103.472
4038.086	-109.036
4040.527	-113.120
4042.969	-114.355
4045.410	-109.281
4047.852	-95.899
4050.293	-94.143
4052.734	-97.001
4055.176	-99.251
4057.617	-97.587
4060.059	-96.007
4062.500	-102.499
4064.941	-110.951
4067.383	-121.550
4069.824	-104.830
4072.266	-100.541
4074.707	-96.872
4077.148	-93.218
4079.590	-100.075
4082.031	-105.485
4084.473	-97.581
4086.914	-99.365
4089.355	-103.347
4091.797	-100.123
4094.238	-102.095
4096.680	-104.829
4099.121	-106.419
4101.562	-117.453
4104.004	-116.098
4106.445	-117.180
4108.887	-106.298
4111.328	-106.828
4113.770	-110.892
4116.211	-106.987
4118.652	-103.194
4121.094	-102.608
4123.535	-97.461
4125.977	-99.353
4128.418	-103.934
4130.859	-109.165
4133.301	-101.970
4135.742	-101.514
4138.184	-107.776
4140.625	-105.508
4143.066	-101.792
4145.508	-103.190
4147.949	-110.612
4150.391	-112.284
4152.832	-105.186
4155.273	-115.089
4157.715	-108.283
4160.156	-98.821
4162.598	-105.691
4165.039	-100.383
4167.480	-100.390
4169.922	-101.343
4172.363	-104.430
4174.805	-104.847
4177.246	-96.066
4179.687	-97.963
4182.129	-106.170
4184.570	-106.269
4187.012	-108.055
4189.453	-106.889
4191.895	-102.344
4194.336	-98.092
4196.777	-97.859
4199.219	-100.501
4201.660	-101.774
4204.102	-103.387
4206.543	-108.275
4208.984	-105.223
4211.426	-105.402
4213.867	-100.817
4216.309	-102.945
4218.750	-115.963
4221.191	-123.065
4223.633	-113.270
4226.074	-105.457
4228.516	-98.759
4230.957	-100.610
4233.398	-103.734
4235.840	-102.345
4238.281	-101.903
4240.723	-95.474
4243.164	-99.197
4245.605	-108.231
4248.047	-110.711
4250.488	-107.105
4252.930	-116.546
4255.371	-108.701
4257.812	-103.112
4260.254	-103.198
4262.695	-104.751
4265.137	-97.468
4267.578	-102.239
4270.020	-113.684
4272.461	-103.299
4274.902	-101.057
4277.344	-114.880
4279.785	-101.742
4282.227	-104.632
4284.668	-114.778
4287.109	-107.110
4289.551	-101.235
4291.992	-104.467
4294.434	-111.943
4296.875	-114.100
4299.316	-106.952
4301.758	-106.036
4304.199	-109.245
4306.641	-117.575
4309.082	-118.203
4311.523	-111.509
4313.965	-110.829
4316.406	-111.479
4318.848	-114.373
4321.289	-101.067
4323.730	-96.632
4326.172	-102.109
4328.613	-110.065
4331.055	-111.086
4333.496	-101.366
4335.937	-105.268
4338.379	-107.308
4340.820	-113.743
4343.262	-100.538
4345.703	-103.463
4348.145	-108.457
4350.586	-103.609
4353.027	-109.251
4355.469	-103.804
4357.910	-105.087
4360.352	-104.040
4362.793	-100.934
4365.234	-99.839
4367.676	-100.658
4370.117	-103.491
4372.559	-107.857
4375.000	-118.005
4377.441	-101.553
4379.883	-96.430
4382.324	-101.643
4384.766	-121.499
4387.207	-115.309
4389.648	-105.843
4392.090	-101.322
4394.531	-101.185
4396.973	-95.722
4399.414	-96.834
4401.855	-114.985
4404.297	-102.699
4406.738	-103.461
4409.180	-110.391
4411.621	-100.330
4414.062	-97.662
4416.504	-99.005
4418.945	-104.902
4421.387	-116.446
4423.828	-105.353
4426.270	-100.447
4428.711	-98.304
4431.152	-96.148
4433.594	-101.434
4436.035	-107.616
4438.477	-105.514
4440.918	-104.465
4443.359	-102.664
4445.801	-112.167
4448.242	-101.142
4450.684	-104.065
4453.125	-111.385
4455.566	-109.394
4458.008	-103.664
4460.449	-104.881
4462.891	-106.099
4465.332	-105.647
4467.773	-100.590
4470.215	-105.027
4472.656	-111.365
4475.098	-115.138
4477.539	-104.972
4479.980	-103.418
4482.422	-103.999
4484.863	-104.683
4487.305	-105.566
4489.746	-107.622
4492.187	-103.631
4494.629	-101.593
4497.070	-103.705
4499.512	-101.085
4501.953	-101.121
4504.395	-101.548
4506.836	-109.681
4509.277	-109.422
4511.719	-104.498
4514.160	-101.364
4516.602	-98.679
4519.043	-115.506
4521.484	-123.672
4523.926	-94.251
4526.367	-92.953
4528.809	-99.435
4531.250	-101.525
4533.691	-110.725
4536.133	-112.869
4538.574	-103.679
4541.016	-101.302
4543.457	-115.280
4545.898	-130.047
4548.340	-105.485
4550.781	-103.040
4553.223	-99.554
4555.664	-100.838
4558.105	-106.291
4560.547	-111.805
4562.988	-103.889
4565.430	-99.260
4567.871	-101.587
4570.312	-105.370
4572.754	-106.752
4575.195	-107.052
4577.637	-99.617
4580.078	-104.314
4582.520	-103.873
4584.961	-110.087
4587.402	-112.022
4589.844	-106.701
4592.285	-103.069
4594.727	-104.073
4597.168	-111.463
4599.609	-108.305
4602.051	-113.856
4604.492	-100.116
4606.934	-100.317
4609.375	-116.312
4611.816	-109.360
4614.258	-104.543
4616.699	-106.578
4619.141	-109.089
4621.582	-109.088
4624.023	-103.520
4626.465	-102.355
4628.906	-106.382
4631.348	-101.326
4633.789	-100.207
4636.230	-97.055
4638.672	-96.169
4641.113	-95.507
4643.555	-97.186
4645.996	-112.674
4648.437	-114.970
4650.879	-107.100
4653.320	-109.326
4655.762	-115.834
4658.203	-107.410
4660.645	-102.646
4663.086	-109.427
4665.527	-107.286
4667.969	-114.450
4670.410	-102.946
4672.852	-97.793
4675.293	-99.361
4677.734	-98.412
4680.176	-100.698
4682.617	-111.638
4685.059	-100.667
4687.500	-98.326
4689.941	-104.346
4692.383	-102.215
4694.824	-101.504
4697.266	-102.546
4699.707	-100.927
4702.148	-97.594
4704.590	-102.266
4707.031	-102.997
4709.473	-102.331
4711.914	-114.380
4714.355	-105.303
4716.797	-103.808
4719.238	-99.829
4721.680	-98.796
4724.121	-101.917
4726.562	-103.710
4729.004	-98.365
4731.445	-99.060
4733.887	-101.085
4736.328	-104.782
4738.770	-113.347
4741.211	-111.904
4743.652	-106.134
4746.094	-103.391
4748.535	-105.117
4750.977	-102.924
4753.418	-100.812
4755.859	-101.044
4758.301	-101.509
4760.742	-102.757
4763.184	-104.563
4765.625	-111.210
4768.066	-110.197
4770.508	-102.599
4772.949	-99.229
4775.391	-101.406
4777.832	-100.787
4780.273	-97.195
4782.715	-104.807
4785.156	-100.366
4787.598	-101.214
4790.039	-105.279
4792.480	-111.687
4794.922	-106.375
4797.363	-116.936
4799.805	-100.746
4802.246	-103.930
4804.687	-103.482
4807.129	-105.445
4809.570	-103.137
4812.012	-101.730
4814.453	-103.209
4816.895	-107.590
4819.336	-113.118
4821.777	-108.191
4824.219	-107.111
4826.660	-108.603
4829.102	-100.916
4831.543	-100.130
4833.984	-103.536
4836.426	-111.808
4838.867	-109.735
4841.309	-108.914
4843.750	-101.718
4846.191	-101.156
4848.633	-110.884
4851.074	-101.394
4853.516	-101.593
4855.957	-105.747
4858.398	-102.287
4860.840	-108.598
4863.281	-112.482
4865.723	-130.612
4868.164	-109.401
4870.605	-98.768
4873.047	-96.799
4875.488	-106.074
4877.930	-95.421
4880.371	-97.169
4882.812	-106.898
4885.254	-98.971
4887.695	-106.701
4890.137	-108.651
4892.578	-110.532
4895.020	-101.551
4897.461	-96.493
4899.902	-100.681
4902.344	-104.717
4904.785	-105.399
4907.227	-104.318
4909.668	-112.534
4912.109	-108.771
4914.551	-111.240
4916.992	-100.608
4919.434	-102.858
4921.875	-99.143
4924.316	-99.740
4926.758	-102.666
4929.199	-105.569
4931.641	-105.915
4934.082	-105.958
4936.523	-110.809
4938.965	-114.813
4941.406	-117.407
4943.848	-113.533
4946.289	-106.651
4948.730	-115.693
4951.172	-102.762
4953.613	-104.304
4956.055	-101.439
4958.496	-101.270
4960.937	-103.440
4963.379	-102.248
4965.820	-99.236
4968.262	-103.260
4970.703	-102.897
4973.145	-99.418
4975.586	-101.852
4978.027	-109.220
4980.469	-99.575
4982.910	-99.142
4985.352	-101.933
4987.793	-104.762
4990.234	-109.906
4992.676	-109.869
4995.117	-118.981
4997.559	-107.339
